File: data/Database Raman/Ferrosilite.txt
   100   0.0000000e+00
   181.011   0.08374
   181.975   98.37
   182.939   83.6094
   183.904   41.4506
   184.868   83.7284
   185.832   42.9872
   186.796   2.68603
   187.76   2.03137
   188.725   28.2493
   189.689   28.5049
   190.653   11.9396
   191.617   2.79272
   192.582   24.5526
   193.546   18.7179
   194.51   16.72
   195.474   30.402
   196.439   48.7561
   197.403   45.9963
   198.367   28.1923
   199.331   7.87573
   200.296   7.74341
   201.26   46.9451
   202.224   78.8761
   203.188   94.7616
   204.152   173.015
   205.117   179.486
   206.081   172.31
   207.045   196.604
   208.009   200.673
   208.974   278.804
   209.938   319.217
   210.902   253.662
   211.866   372.941
   212.831   395.844
   213.795   389.684
   214.759   459.185
   215.723   463.411
   216.687   473.902
   217.652   509.969
   218.616   569.461
   219.58   550.395
   220.544   546.647
   221.509   554.681
   222.473   549.268
   223.437   646.428
   224.401   674.294
   225.365   630.392
   226.33   598.375
   227.294   559.767
   228.258   479.038
   229.222   406.495
   230.187   419.771
   231.151   362.551
   232.115   302.047
   233.079   256.443
   234.044   216.731
   235.008   167.968
   235.972   149.623
   236.936   151.485
   237.901   136.599
   238.865   83.3254
   239.829   74.2865
   240.793   91.6757
   241.757   48.3119
   242.722   35.77
   243.686   49.4393
   244.65   66.5674
   245.614   52.1776
   246.579   65.1239
   247.543   47.8967
   248.507   19.7288
   249.471   62.5002
   250.436   117.082
   251.4   100.025
   252.364   44.7312
   253.328   78.4814
   254.292   37.8251
   255.257   44.5372
   256.221   103.618
   257.185   116.886
   258.149   70.7041
   259.114   17.7111
   260.078   12.2717
   261.042   4.97058
   262.006   35.2538
   262.971   52.1753
   263.935   56.1582
   264.899   94.7847
   265.863   43.4099
   266.828   38.7332
   267.792   79.322
   268.756   50.4584
   269.72   8.77246
   270.685   3.84522
   271.649   8.74426
   272.613   13.6461
   273.577   12.3152
   274.541   6.67065
   275.506   19.1826
   276.47   87.4999
   277.434   87.8375
   278.398   111.704
   279.363   158.477
   280.327   168.383
   281.291   161.755
   282.255   130.371
   283.219   91.7295
   284.184   78.2396
   285.148   117.861
   286.112   143.494
   287.077   131.779
   288.041   94.2759
   289.005   141.25
   289.969   119.212
   290.933   93.7018
   291.898   170.947
   292.862   141.833
   293.826   104.679
   294.79   99.783
   295.755   130.383
   296.719   179.835
   297.683   195.556
   298.647   208.154
   299.611   244.245
   300.576   227.111
   301.54   263.952
   302.504   323.491
   303.468   367.524
   304.433   440.121
   305.397   457.772
   306.361   494.281
   307.325   592.854
   308.29   674.734
   309.254   746.197
   310.218   852.288
   311.182   1008.64
   312.147   1200.02
   313.111   1286.57
   314.075   1393.82
   315.039   1563.53
   316.003   1721.85
   316.968   1868.19
   317.932   2040.75
   318.896   2246.38
   319.86   2464.95
   320.825   2641.78
   321.789   2867.51
   322.753   3114.74
   323.717   3310.89
   324.682   3495.09
   325.646   3662.75
   326.61   3820.26
   327.574   3979.46
   328.538   3851.41
   329.503   3779.35
   330.467   3732.36
   331.431   3603.66
   332.395   3386.82
   333.36   3106.32
   334.324   2842.49
   335.288   2635.57
   336.252   2375.56
   337.217   2152.89
   338.181   1944.33
   339.145   1735.1
   340.109   1558.9
   341.074   1360.83
   342.038   1201.21
   343.002   1099.84
   343.966   1009.61
   344.93   910.691
   345.895   813.885
   346.859   734.615
   347.823   684.348
   348.787   637.236
   349.752   574.89
   350.716   521.329
   351.68   502.394
   352.644   454.168
   353.609   429.048
   354.573   421.032
   355.537   409.493
   356.501   390.491
   357.466   391.272
   358.43   437.152
   359.394   504.134
   360.358   483.89
   361.322   514.989
   362.287   555.425
   363.251   598.17
   364.215   711.359
   365.179   669.065
   366.144   676.138
   367.108   785.253
   368.072   970.469
   369.036   1015.46
   370   1024.2
   370.965   1071.86
   371.929   1201.4
   372.893   1322.6
   373.858   1419.28
   374.822   1529.89
   375.786   1688.01
   376.75   1908.36
   377.714   2075.24
   378.679   2225.58
   379.643   2364.99
   380.607   2439.9
   381.571   2540.27
   382.536   2614.44
   383.5   2632.95
   384.464   2587.44
   385.428   2544.55
   386.392   2383.16
   387.357   2127.4
   388.321   1853.88
   389.285   1596.27
   390.25   1336.35
   391.214   1081.6
   392.178   856.28
   393.142   706.136
   394.106   547.091
   395.071   448.902
   396.035   402.392
   396.999   332.655
   397.963   279.134
   398.928   212.003
   399.892   156.661
   400.856   150.69
   401.82   160.633
   402.784   133.342
   403.749   102.637
   404.713   103.89
   405.677   127.99
   406.641   200.288
   407.606   207.728
   408.57   171.985
   409.534   246.696
   410.498   261.041
   411.463   279.5
   412.427   320.702
   413.391   364.599
   414.355   388.032
   415.32   420.58
   416.284   425.031
   417.248   394.113
   418.212   413.064
   419.176   410.936
   420.141   375.046
   421.105   321.544
   422.069   279.932
   423.033   199.181
   423.998   144.912
   424.962   97.1162
   425.926   20.6018
   426.89   27.0593
   427.855   11.2119
   428.819   5.22388
   429.783   13.6455
   430.747   52.0475
   431.712   70.386
   432.676   52.2944
   433.64   30.9166
   434.604   37.5555
   435.568   43.5592
   436.533   21.4299
   437.497   14.6826
   438.461   44.9326
   439.425   31.3666
   440.39   44.7866
   441.354   9.44775
   442.318   89.8088
   443.282   25.7327
   444.247   25.1321
   445.211   63.7329
   446.175   94.629
   447.139   90.8834
   448.103   111.193
   449.068   108.828
   450.032   124.907
   450.996   154.039
   451.96   101.924
   452.925   110.17
   453.889   84.3431
   454.853   57.33
   455.817   104.306
   456.782   55.1035
   457.746   45.7165
   458.71   41.0551
   459.674   13.7385
   460.639   33.2347
   461.603   4.49109
   462.567   15.3447
   463.531   4.9176
   464.495   3.91052
   465.46   21.8251
   466.424   7.92651
   467.388   39.1472
   468.352   28.781
   469.317   13.5645
   470.281   2.93335
   471.245   0.848145
   472.209   8.33935
   473.173   27.3118
   474.138   61.4888
   475.102   63.469
   476.066   21.5098
   477.031   12.0237
   477.995   16.2709
   478.959   8.91065
   479.923   14.5837
   480.887   39.6255
   481.852   66.8154
   482.816   60.3368
   483.78   24.864
   484.744   24.9946
   485.709   77.6073
   486.673   98.5355
   487.637   69.6313
   488.601   29.938
   489.565   22.3938
   490.53   81.654
   491.494   82.111
   492.458   68.6904
   493.422   73.7408
   494.387   100.515
   495.351   109.423
   496.315   97.2771
   497.279   131.85
   498.244   176.46
   499.208   178.348
   500.172   235.608
   501.136   244.188
   502.101   268.468
   503.065   329.86
   504.029   367.013
   504.993   429.874
   505.957   466.882
   506.922   515.134
   507.886   609.487
   508.85   624.369
   509.814   677.047
   510.779   738.395
   511.743   784.626
   512.707   815.562
   513.671   797.479
   514.636   796.1
   515.6   784.495
   516.564   747.156
   517.528   730.401
   518.492   747.983
   519.457   734.137
   520.421   716.733
   521.385   759.762
   522.349   802.225
   523.314   857.077
   524.278   899.705
   525.242   927.738
   526.206   966.556
   527.171   996.167
   528.135   1046.2
   529.099   1095.53
   530.063   1115.02
   531.028   1092.63
   531.992   1080.19
   532.956   1045.3
   533.92   1002.35
   534.885   986.227
   535.849   959.354
   536.813   913.292
   537.777   879.256
   538.741   861.66
   539.706   827.1
   540.67   764.348
   541.634   745.743
   542.598   704.272
   543.563   598.72
   544.527   527.503
   545.491   466.863
   546.455   450.643
   547.419   438.022
   548.384   377.485
   549.348   338.151
   550.312   316.732
   551.276   316.169
   552.241   328.693
   553.205   320.043
   554.169   257.874
   555.133   250.758
   556.098   274.402
   557.062   274.951
   558.026   236.098
   558.99   228.754
   559.955   212.633
   560.919   209.708
   561.883   240.248
   562.847   248.766
   563.812   152.942
   564.776   135.606
   565.74   191.625
   566.704   213.236
   567.668   183.282
   568.633   112.296
   569.597   89.4514
   570.561   123.502
   571.525   130.62
   572.49   102.954
   573.454   118.631
   574.418   150.518
   575.382   155.899
   576.346   101.553
   577.311   114.622
   578.275   109.66
   579.239   95.9563
   580.203   97.4534
   581.168   86.3143
   582.132   70.1436
   583.096   59.4442
   584.06   30.6716
   585.025   9.42444
   585.989   86.5453
   586.953   53.4928
   587.917   37.4853
   588.881   47.0251
   589.846   6.34863
   590.81   23.1464
   591.774   57.8935
   592.739   59.4652
   593.703   27.7047
   594.667   6.22302
   595.631   8.75757
   596.595   21.7191
   597.56   13.3516
   598.524   7.79175
   599.488   20.1196
   600.452   27.436
   601.417   33.9557
   602.381   16.8143
   603.345   18.1445
   604.309   19.6321
   605.274   14.9183
   606.238   9.68323
   607.202   24.2599
   608.166   35.9252
   609.13   38.2429
   610.095   7.66626
   611.059   20.1262
   612.023   2.84778
   612.987   29.8345
   613.952   20.3351
   614.916   46.5653
   615.88   45.7703
   616.844   55.4875
   617.808   84.2331
   618.773   30.1704
   619.737   18.6873
   620.701   29.0029
   621.665   45.8616
   622.63   69.4246
   623.594   106.541
   624.558   63.1257
   625.522   88.1732
   626.487   129.099
   627.451   89.6704
   628.415   132.852
   629.379   157.064
   630.344   182.109
   631.308   206.388
   632.272   209.821
   633.236   183.82
   634.201   227.763
   635.165   272.159
   636.129   304.077
   637.093   348.671
   638.057   421.382
   639.022   504.179
   639.986   599.379
   640.95   711.251
   641.914   827.89
   642.879   898.442
   643.843   980.944
   644.807   1125.91
   645.771   1292.52
   646.736   1416.76
   647.7   1504.84
   648.664   1631.39
   649.628   1745.71
   650.592   1861.99
   651.557   1990.94
   652.521   2009.55
   653.485   2065.18
   654.449   2064.75
   655.414   2018.51
   656.378   1984.29
   657.342   1945.18
   658.306   1928.42
   659.271   1965.52
   660.235   2028.71
   661.199   2092.13
   662.163   2203.65
   663.128   2375.4
   664.092   2571.98
   665.056   2712.1
   666.02   2813.19
   666.984   3110.54
   667.949   3169.76
   668.913   3269.35
   669.877   3326.93
   670.841   3240.77
   671.806   3116.74
   672.77   2919.04
   673.734   2672.3
   674.698   2352.7
   675.663   2013.95
   676.627   1805.92
   677.591   1532.74
   678.555   1339.22
   679.519   1162.68
   680.484   978.062
   681.448   846.111
   682.412   750.34
   683.376   656.712
   684.341   571.653
   685.305   490.464
   686.269   403.336
   687.233   358.243
   688.198   360.864
   689.162   315.529
   690.126   230.358
   691.09   176.521
   692.054   183.892
   693.019   205.906
   693.983   176.737
   694.947   150.955
   695.911   168.086
   696.876   96.1864
   697.84   67.195
   698.804   69.9896
   699.768   66.365
   700.733   61.6556
   701.697   126.228
   702.661   101.367
   703.625   63.0907
   704.59   57.7775
   705.554   58.9452
   706.518   9.6687
   707.482   8.27197
   708.447   12.0197
   709.411   23.4518
   710.375   29.2153
   711.339   4.40857
   712.303   12.7576
   713.268   3.80078
   714.232   11.7399
   715.196   5.98096
   716.16   34.3561
   717.125   33.1309
   718.089   29.4404
   719.053   17.3157
   720.017   4.65283
   720.981   17.4846
   721.946   7.25598
   722.91   27.6493
   723.874   65.1702
   724.838   88.536
   725.803   82.0015
   726.767   53.8935
   727.731   33.9045
   728.695   10.3114
   729.66   58.9673
   730.624   117.876
   731.588   108.059
   732.552   129.463
   733.516   117.236
   734.481   127.787
   735.445   135.524
   736.409   126.971
   737.374   147.777
   738.338   165.74
   739.302   116.936
   740.266   108.815
   741.23   139.169
   742.195   118.578
   743.159   122.787
   744.123   118.515
   745.087   106.778
   746.052   97.3364
   747.016   110.978
   747.98   174.78
   748.944   149.694
   749.909   103.79
   750.873   96.4208
   751.837   102.488
   752.801   43.6771
   753.765   31.3348
   754.73   39.5942
   755.694   35.3998
   756.658   9.26099
   757.622   33.9872
   758.587   10.0277
   759.551   5.60339
   760.515   4.62073
   761.479   7.53418
   762.443   20.1228
   763.408   33.6096
   764.372   4.4408
   765.336   0.785889
   766.301   14.8657
   767.265   13.9851
   768.229   9.93079
   769.193   44.4631
   770.157   7.90613
   771.122   24.8295
   772.086   42.7325
   773.05   0.414673
   774.014   17.528
   774.979   57.4806
   775.943   16.9414
   776.907   17.9077
   777.871   42.3223
   778.836   20.8501
   779.8   27.6476
   780.764   50.671
   781.728   44.1189
   782.692   14.5778
   783.657   6.88269
   784.621   8.77112
   785.585   40.1108
   786.549   27.5584
   787.514   43.3748
   788.478   55.7683
   789.442   27.1534
   790.406   30.8868
   791.37   57.3662
   792.335   60.6986
   793.299   43.4551
   794.263   44.5906
   795.227   90.1901
   796.192   79.0868
   797.156   82.5369
   798.12   103.334
   799.084   92.8524
   800.049   69.8965
   801.013   129.46
   801.977   96.3709
   802.941   80.189
   803.906   94.8442
   804.87   93.0521
   805.834   59.2847
   806.798   77.3197
   807.763   93.916
   808.727   123.256
   809.691   132.148
   810.655   109.767
   811.619   85.9091
   812.584   104.659
   813.548   135.092
   814.512   121.67
   815.476   95.8637
   816.441   100.856
   817.405   140.552
   818.369   112.192
   819.333   100.231
   820.298   108.093
   821.262   129.149
   822.226   151.063
   823.19   145.075
   824.154   118.545
   825.119   104.459
   826.083   119.378
   827.047   129.44
   828.011   105.314
   828.976   110.399
   829.94   158.888
   830.904   112.094
   831.868   65.4013
   832.833   67.2035
   833.797   67.529
   834.761   109.516
   835.725   75.8773
   836.689   62.6323
   837.654   75.7375
   838.618   87.4683
   839.582   78.4727
   840.546   38.9199
   841.511   76.3291
   842.475   52.152
   843.439   2.40295
   844.403   8.51416
   845.368   41.7455
   846.332   19.4022
   847.296   37.0337
   848.26   42.7422
   849.225   11.0386
   850.189   22.3993
   851.153   13.1029
   852.117   7.43396
   853.082   13.6766
   854.046   20.5166
   855.01   3.51257
   855.974   56.8695
   856.938   17.8426
   857.903   4.25146
   858.867   12.2273
   859.831   20.457
   860.795   12.5319
   861.76   5.31677
   862.724   61.3767
   863.688   13.3562
   864.652   20.5714
   865.616   59.8206
   866.581   62.3801
   867.545   32.0902
   868.509   82.7206
   869.473   47.2559
   870.438   66.5209
   871.402   84.4673
   872.366   89.202
   873.33   104.388
   874.295   111.309
   875.259   115.734
   876.223   124.35
   877.187   148.217
   878.152   165.507
   879.116   161.898
   880.08   180.783
   881.044   213.908
   882.009   204.249
   882.973   211.155
   883.937   199.342
   884.901   155.675
   885.865   205.644
   886.83   160.733
   887.794   210.404
   888.758   202.167
   889.722   164.148
   890.687   175.05
   891.651   164.603
   892.615   153.108
   893.579   169.384
   894.543   162.19
   895.508   136.057
   896.472   107.493
   897.436   62.662
   898.4   111.947
   899.365   86.0957
   900.329   49.3063
   901.293   21.0045
   902.257   1.1781
   903.222   9.44983
   904.186   52.817
   905.15   32.8889
   906.114   21.5972
   907.079   34.5686
   908.043   10.7594
   909.007   12.6283
   909.971   4.53601
   910.936   0.755615
   911.9   10.0046
   912.864   6.37573
   913.828   22.3832
   914.792   0.917114
   915.757   15.0658
   916.721   11.1089
   917.685   4.60559
   918.649   31.4746
   919.614   39.108
   920.578   15.384
   921.542   78.3976
   922.506   48.2146
   923.471   5.51477
   924.435   6.85547
   925.399   49.4893
   926.363   74.3062
   927.327   92.1252
   928.292   74.843
   929.256   49.7468
   930.22   67.4089
   931.184   92.1194
   932.149   111.847
   933.113   149.653
   934.077   180.593
   935.041   211.164
   936.006   213.326
   936.97   262.673
   937.934   337.029
   938.898   384.565
   939.862   440.545
   940.827   507.353
   941.791   535.865
   942.755   604.955
   943.719   704.539
   944.684   793.045
   945.648   851.433
   946.612   830.919
   947.576   890.194
   948.541   924.95
   949.505   892.046
   950.469   854.247
   951.433   850.409
   952.398   771.749
   953.362   664.505
   954.326   582.192
   955.29   509.462
   956.255   455.393
   957.219   397.995
   958.183   290.125
   959.147   236.588
   960.111   119.956
   961.076   134.565
   962.04   152.107
   963.004   92.9346
   963.968   27.6746
   964.933   47.5383
   965.897   53.1182
   966.861   33.3025
   967.825   24.1973
   968.789   33.8398
   969.754   55.947
   970.718   93.593
   971.682   165.659
   972.646   141.021
   973.611   192.573
   974.575   239.308
   975.539   277.428
   976.503   334.971
   977.468   417.403
   978.432   532.474
   979.396   651.078
   980.36   748.495
   981.324   895.037
   982.289   1104.07
   983.253   1333.31
   984.217   1587.88
   985.182   1891.4
   986.146   2247.23
   987.11   2638.01
   988.074   3051.4
   989.038   3500.72
   990.003   3982.55
   990.967   4400.3
   991.931   4804.55
   992.895   5198.24
   993.86   5484.68
   994.824   5664.74
   995.788   5727.28
   996.752   5588.33
   997.716   5396.07
   998.681   5153.73
   999.645   4695.18
   1000.61   4219.03
   1001.57   3811.15
   1002.54   3384.51
   1003.5   2911.45
   1004.47   2622.13
   1005.43   2287.12
   1006.39   1997.36
   1007.36   1774.48
   1008.32   1568.99
   1009.29   1371.09
   1010.25   1265.51
   1011.22   1196.66
   1012.18   1057.42
   1013.14   880.692
   1014.11   765.839
   1015.07   734.235
   1016.04   713.558
   1017   593.153
   1017.97   483.695
   1018.93   465.835
   1019.89   422.162
   1020.86   391.873
   1021.82   374.939
   1022.79   312.713
   1023.75   290.657
   1024.71   288.413
   1025.68   307.642
   1026.64   290.897
   1027.61   266.044
   1028.57   259.901
   1029.54   254.763
   1030.5   250.281
   1031.46   185.369
   1032.43   251.589
   1033.39   153.494
   1034.36   103.099
   1035.32   168.707
   1036.29   126.697
   1037.25   97.7737
   1038.21   20.6257
   1039.18   90.7222
   1040.14   54.8772
   1041.11   10.1502
   1042.07   33.7786
   1043.04   44.6833
   1044   39.8413
   1044.96   0.943848
   1045.93   19.1875
   1046.89   18.6121
   1047.86   4.27856
   1048.82   2.76025
   1049.79   27.5327
   1050.75   19.906
   1051.71   26.9849
   1052.68   17.8701
   1053.64   0.76001
   1054.61   11.8823
   1055.57   47.9734
   1056.54   31.7021
   1057.5   9.4585
   1058.46   10.5127
   1059.43   9.2627
   1060.39   2.27466
   1061.36   13.106
   1062.32   15.1848
   1063.28   5.2063
   1064.25   10.4192
   1065.21   1.82593
   1066.18   6.11792
   1067.14   20.4575
   1068.11   12.3679
   1069.07   18.7493
   1070.03   33.7195
   1071   0.61084
   1071.96   42.8069
   1072.93   33.1577
   1073.89   33.5928
   1074.86   58.7412
   1075.82   42.3359
   1076.78   25.3831
   1077.75   42.4453
   1078.71   4.06177
   1079.68   64.7188
   1080.64   58.0781
   1081.61   40.2476
   1082.57   41.8496
   1083.53   57.6538
   1084.5   70.5933
   1085.46   67.1538
   1086.43   55.014
   1087.39   60.4929
   1088.35   70.9967
   1089.32   77.8943
   1090.28   80.6897
   1091.25   90.6683
   1092.21   102.107
   1093.18   83.1113
   1094.14   88.613
   1095.1   59.4443
   1096.07   71.8928
   1097.03   79.6547
   1098   90.9939
   1098.96   99.6773
   1099.92   79.6733
   1100.89   127.738
   1101.85   108.051
   1102.82   87.8552
   1103.78   108.1
   1104.75   110.107
   1105.71   82.1382
   1106.67   65.9191
   1107.64   75.4824
   1108.6   66.9359
   1109.57   88.0632
   1110.53   53.8603
   1111.5   66.6436
   1112.46   99.0209
   1113.42   111.472
   1114.39   114.091
   1115.35   88.2148
   1116.32   80.7867
   1117.28   66.0276
   1118.25   119.645
   1119.21   66.3312
   1120.17   17.6936
   1121.14   43.5356
   1122.1   37.6722
   1123.07   71.2324
   1124.03   46.4259
   1124.99   23.0056
   1125.96   31.2925
   1126.92   8.04956
   1127.89   10.3595
   1128.85   10.7887
   1129.82   28.8025
   1130.78   41.9622
   1131.74   59.5142
   1132.71   61.3292
   1133.67   23.0617
   1134.64   36.12
   1135.6   66.6467
   1136.57   59.5459
   1137.53   42.8319
   1138.49   13.7316
   1139.46   47.4275
   1140.42   24.2727
   1141.39   26.0259
   1142.35   21.7943
   1143.32   13.557
   1144.28   32.5005
   1145.24   51.1645
   1146.21   28.476
   1147.17   19.5083
   1148.14   53.4202
   1149.1   50.5958
   1150.07   59.2302
   1151.03   71.346
   1151.99   72.2698
   1152.96   86.8276
   1153.92   73.5027
   1154.89   64.7203
   1155.85   58.3671
   1156.82   47.6686
   1157.78   69.5907
   1158.74   71.6533
   1159.71   41.4344
   1160.67   31.5411
   1161.64   19.5255
   1162.6   26.3046
   1163.57   11.5842
   1164.53   13.589
   1165.49   5.66443
   1166.46   24.3776
   1167.42   25.976
   1168.39   38.2751
   1169.35   38.8987
   1170.31   33.4443
   1171.28   8.86279
   1172.24   69.1448
   1173.21   66.0007
   1174.17   58.3064
   1175.13   62.2118
   1176.1   51.9029
   1177.06   65.6848
   1178.03   27.5872
   1178.99   79.6883
   1179.96   90.9142
   1180.92   35.5292
   1181.88   15.7273
   1182.85   33.1304
   1183.81   57.6752
   1184.78   84.6508
   1185.74   63.7125
   1186.71   68.8153
   1187.67   43.6398
   1188.63   70.1018
   1189.6   57.5633
   1190.56   4.92627
   1191.53   8.10388
   1192.49   37.928
   1193.46   64.5819
   1194.42   43.1232
   1195.38   87.5389
   1196.35   82.6366
   1197.31   61.8245
   1198.28   31.5638
   1199.24   20.7158
   1200.21   12.2128
   1201.17   32.4719
   1202.13   45.2018
   1203.1   51.5133
   1204.06   49.5586
   1205.03   77.5441
   1205.99   47.6008
   1206.95   10.3721
   1207.92   3.4751
   1208.88   24.2064
   1209.85   43.9152
   1210.81   0.062622
   1211.78   0.304077
   1212.74   20.5098
   1213.7   55.608
   1214.67   60.8442
   1215.63   54.6791
   1216.6   27.2345
   1217.56   1.69763
   1218.53   30.7954
   1219.49   37.7268
   1220.45   43.9858
   1221.42   50.6946
   1222.38   51.2383
   1223.35   63.5071
   1224.31   60.2881
   1225.28   53.1079
   1226.24   51.6427
   1227.2   24.0116
   1228.17   6.96204
   1229.13   52.7252
   1230.1   2.63037
   1231.06   45.0802
   1232.03   42.0198
   1232.99   37.2396
   1233.95   52.2643
   1234.92   46.8961
   1235.88   33.7963
   1236.85   41.2487
   1237.81   38.1503
   1238.78   48.2924
   1239.74   76.2389
   1240.7   38.0496
   1241.67   30.0471
   1242.63   42.1425
   1243.6   18.0653
   1244.56   4.34863
   1245.52   17.6461
   1246.49   63.6365
   1247.45   41.3114
   1248.42   36.4587
   1249.38   38.2921
   1250.35   39.5042
   1251.31   45.6912
   1252.27   46.1813
   1253.24   24.1533
   1254.2   37.4048
   1255.17   61.9473
   1256.13   65.3966
   1257.1   40.03
   1258.06   39.021
   1259.02   55.939
   1259.99   29.0179
   1260.95   20.7432
   1261.92   37.4509
   1262.88   2.16675
   1263.85   24.0787
   1264.81   51.6508
   1265.77   48.3474
   1266.74   49.6172
   1267.7   52.9573
   1268.67   62.2887
   1269.63   51.5906
   1270.59   29.3108
   1271.56   29.8163
   1272.52   46.2167
   1273.49   63.8385
   1274.45   5.73352
   1275.42   21.5743
   1276.38   31.964
   1277.34   24.1643
   1278.31   6.52441
   1279.27   20.7115
   1280.24   43.3219
   1281.2   30.9744
   1282.16   37.0422
   1283.13   5.52588
   1284.09   3.6803
   1285.06   26.4844
   1286.02   4.79907
   1286.99   4.27588
   1287.95   20.0734
   1288.91   9.92969
   1289.88   9.08923
   1290.84   47.4397
   1291.81   22.9528
   1292.77   1.82703
   1293.74   22.9645
   1294.7   59.4938
   1295.66   53.6681
   1296.63   45.9511
   1297.59   15.7867
   1298.56   17.1255
   1299.52   40.7876
   1300.49   16.7087
   1301.45   21.2554
   1500   0.0000000e+00